time,accel_x,accel_y,accel_z,gyro_x,gyro_y,gyro_z
0.0113,16932,13068,-16164,14264,-20451,-22586
0.0262,27720,32767,-14912,6508,-19290,2215
0.0518,11044,1276,-30320,-18698,17047,7673
0.0665,-16448,-20444,-20576,4556,3599,-30532
0.0865,792,5028,-20056,6415,-4578,-27367
0.1073,96,788,-24052,-7784,12404,-1320
0.1263,-17560,-9156,-20180,-1510,7744,-5342
0.1474,-8040,4836,-15744,-1018,-1629,-3566
0.1659,-868,17808,-9484,-11654,12776,10685
0.187,-10132,920,-9904,-20716,12953,16675
0.2077,-5076,-1980,-12836,-12194,15927,8626
0.227,-44,3612,-13140,-10804,24807,12859
0.2479,-3788,4064,-11628,-9487,20031,18339
0.2661,2432,2896,-15064,-7482,26731,16013
0.2865,-2496,1444,-12200,-6270,31634,16017
0.3066,-6548,3784,-12508,-4869,30493,13102
0.3265,-6768,12320,-11496,-9187,29380,17538
0.3474,-9980,20016,-17444,-18827,28601,24079
0.366,-11004,20068,-13756,-29114,21081,31730
0.3875,-4912,15924,-20236,-32768,7693,32767
0.4063,9728,4336,-26004,-28390,3991,32767
0.4264,13324,-3104,-30136,-12608,16195,32767
0.4471,5108,-7444,-18252,7254,22624,16370
0.4666,-8132,-2028,-740,17295,11129,-897
0.4867,-8148,9600,736,11097,-18115,-5542
0.5062,4764,8880,-11832,-29,-26425,-3561
0.5267,-1240,-2692,-21972,1570,-17107,-13129
0.5481,6080,-2556,-19112,24593,-25974,-32768
0.5669,32767,32767,-17088,26683,-9299,-32768
0.5872,32064,32760,-16272,-9636,32767,26319
0.6064,-31488,-15528,-16420,2083,13332,-8727
0.6273,-19520,-4396,-21148,18387,-25395,-32768
0.6468,11584,11456,-32572,24108,1786,-32228
0.6668,-6488,11132,-17020,20308,18549,-16998
0.6867,-21032,13832,-13372,11705,-14140,-15588
0.7064,3072,24840,-18072,7650,-14868,-18007
0.7269,17720,13728,-22352,-8400,-3498,6430
0.7473,540,3692,-16100,204,2663,3444
0.7662,-7528,8432,-12780,-271,-14613,5196
0.7865,-3180,9872,-18752,-7429,-16283,10191
0.8063,2588,9424,-14412,-6060,-17214,4863
0.8266,8580,13152,-15116,-9960,-18042,16836
0.8467,2516,5800,-15208,-12003,-14903,18043
0.8669,-248,80,-15744,-7228,-21447,15511
0.887,9484,2656,-17580,-275,-19098,10748
0.9062,14612,3500,-13896,62,-15178,14408
0.9268,11104,984,-12488,-610,-11661,13258
0.9482,4796,3960,-11704,329,-15997,8715
0.9666,10284,7324,-16336,-468,-19047,6313
0.9867,12728,7100,-15012,-2452,-11022,2678
1.0068,3812,6292,-14480,-2748,-12083,1447
1.0266,4604,3496,-18164,-2576,-15097,-6951
1.0466,9116,8324,-16700,-7316,-17920,-1090
1.0657,11276,3264,-19936,-6498,-15878,-7159
1.086,11584,4492,-20828,-3341,-10324,-14834
1.1071,11096,8096,-20452,-3116,-12723,-13733
1.1261,11116,5060,-23828,930,-7097,-18421
1.1464,10300,7488,-19072,6085,-6172,-25174
1.1657,17532,15016,-19396,12230,-11838,-30955
1.1862,22020,32767,-18372,9574,-5739,-20107
1.2063,29660,7624,-16768,5463,-20225,-20255
1.2263,29456,28508,-27524,8404,-305,-20684
1.2461,2208,3656,-19172,-16424,29710,-13615
1.266,-24972,-4868,-13788,-20288,-24747,-7029
1.2865,11704,-17608,-32768,-13136,2603,-16027
1.3062,-11684,-18636,-32768,15721,32767,-19556
1.3263,-32588,9052,-5184,20327,15445,-21209
1.3465,-9132,24216,-4672,-4371,-1993,-6739
1.3657,3192,15316,-12780,-27659,15087,17173
1.386,-11792,-6808,-14168,-19276,26131,12819
1.4066,-11184,-4772,-8160,-8447,18775,5185
1.4267,-3360,3836,-8652,-8240,23779,7179
1.4466,1560,3884,-8532,-8471,21562,12766
1.4657,4824,6192,-11360,-8970,26528,21961
1.486,-4320,4292,-13712,-9374,29287,21673
1.5064,-7140,8468,-12936,-10800,25875,23256
1.5266,-11984,14056,-18220,-18825,22074,30759
1.5466,-7252,11908,-17540,-22295,19975,29719
1.5657,-1348,12300,-16032,-23950,20623,32767
1.5862,3480,7452,-19228,-23365,12634,32767
1.6063,8860,5028,-32572,-15811,8946,32767
1.6267,8368,-7196,-20684,-26,27299,24418
1.6466,-10692,-2600,872,11370,10607,9529
1.6659,-8176,4500,2056,9209,-25912,-1407
1.6869,14056,9044,-13892,-1462,-28373,-2340
1.7064,4412,-2708,-22428,-2832,-4555,-8314
1.7272,-15296,-2872,-15580,32266,-22569,-32768
1.7475,32767,19908,-25516,32767,-32768,-32768
1.7667,32767,32767,-32768,-7643,32767,32767
1.7881,-32768,-15056,-19896,-2988,32767,5660
1.8065,-32768,-17140,-18524,24243,-32768,-32768
1.8264,7240,17508,-32768,32767,-18876,-32768
1.8466,5460,18244,-24760,22427,20936,-15926
1.8665,-31328,7944,-11344,-2828,-13055,377
1.8862,-10632,28464,-9380,21405,-26918,-31265
1.9066,26520,28920,-23096,-15652,-16223,6000
1.9265,13408,-244,-21240,-11068,9270,14195
1.9465,-9924,-6412,-13208,4015,-6973,1182
1.9662,-5584,7208,-19056,1222,-18394,8244
1.9869,1392,6404,-13808,815,-14664,-4143
2.0063,11620,18336,-10868,-1711,-18868,9648
2.0264,9984,9856,-16916,-9926,-12041,24551
2.0467,-2412,-3616,-14724,-7639,-14069,15083
2.0669,760,-3188,-18048,718,-17800,5593
2.0869,7720,6752,-17972,4629,-8219,1747
2.106,3112,12128,-14452,602,-7388,6262
2.1264,-2072,15056,-12632,-4446,-14620,4900
2.1477,6392,7644,-16468,-12109,-20684,9319
2.1664,10764,-188,-18216,-10367,-20083,13926
2.1869,10860,3876,-12912,-4813,-10227,-5149
2.2064,11544,6760,-14340,-9044,-18596,2135
2.2272,12232,368,-19236,-7765,-16734,-2815
2.2475,13604,-232,-20260,-1966,-14583,-11459
2.267,14196,6784,-22096,3575,-10093,-17664
2.2866,12176,9660,-22304,4838,-9609,-15045
2.3063,10708,9536,-18664,8239,-9337,-19357
2.3268,16560,9892,-20016,11836,-13277,-25036
2.3465,21500,23536,-22380,16344,-4165,-28107
2.3664,17068,32767,-12020,12339,-21453,-13236
2.3875,30444,32767,-20452,2485,-32768,11710
2.4062,16556,4284,-32768,-29472,12469,13129
2.4262,-27016,-6076,-10120,-6275,10692,-21652
2.4465,1248,-14056,-32768,-14572,-15506,-19562
2.4668,2528,-17372,-32768,4036,32767,-12119
2.4873,-32768,2196,-6284,16991,26421,-14985
2.5064,-16524,15816,-2296,9093,-7578,-10330
2.5264,8584,27380,-9644,-22520,8875,25311
2.5468,-9772,-1848,-14488,-22629,26127,19069
2.5671,-12532,-7444,-8940,-6655,21208,2189
2.5869,-2204,2224,-8704,-3141,26419,2118
2.6063,-2928,6780,-7404,-6749,24943,8086
2.627,2088,5072,-10536,-7387,28850,10552
2.6483,-2664,6880,-7576,-8560,28531,17621
2.6667,-6208,6316,-10052,-12909,28566,20193
2.6877,-9728,14720,-16208,-20307,21704,32419
2.7063,-16620,17548,-22900,-26635,25957,26839
2.7278,-8792,18508,-11408,-32768,8013,32767
2.7473,7440,11316,-22192,-32768,3559,32767
2.7665,14128,3888,-32768,-23829,12115,32767
2.7865,8532,-11244,-27100,-4148,25203,25724
2.8063,-6944,-11736,-196,14636,14073,5457
2.8263,-8480,5184,2864,17042,-17457,-7439
2.8471,7896,11992,-10228,4232,-28691,-469
2.8668,3256,-5576,-22524,4075,-13716,-13420
2.8881,17836,7788,-13968,32767,-29551,-32768
2.9061,32767,32767,-25700,17898,10763,-16019
2.9263,7828,12100,-23764,-12931,32767,23140
2.9484,-32768,-16908,-29456,12905,-14685,-23148
2.9668,-7080,-6392,-31800,30579,1560,-32768
2.9871,-19692,8588,-12796,29256,6666,-23928
3.0062,-23852,8248,-18060,22133,-16813,-32768
3.0267,4960,32767,-17272,8619,-19570,-20710
3.0475,23504,24140,-21460,-18592,-4892,8057
3.0667,5116,692,-15108,-12023,8434,8657
3.0868,-12968,-192,-10936,-2709,-13400,3492
3.1061,-1800,6664,-19260,-2784,-19934,1606
3.1264,2612,10796,-17776,-6118,-9689,-17
3.1473,1484,19188,-9196,-6999,-13446,5997
3.1665,5916,13416,-11172,-14918,-20908,18195
3.1872,4968,992,-17760,-12948,-18271,18647
3.2062,8856,-5332,-20116,-3115,-14742,13635
3.2264,7424,-4780,-20720,9990,-8156,1937
3.2471,9316,7324,-15620,13006,-6997,225
3.2669,8400,12368,-11576,6440,-6328,4313
3.2869,5488,10456,-11080,-572,-8761,2532
3.3063,13116,-3152,-19948,-5578,-8223,-12862
3.327,8140,16180,-7104,-12276,-13787,1845
3.3486,7652,1960,-17528,-15057,-18836,-3245
3.3667,11576,-4260,-21856,-8300,-15160,-10265
3.3871,13856,-1808,-22168,1896,-11244,-15897
3.4073,13140,5588,-20016,7810,-5646,-19278
3.4264,10432,9712,-20656,9781,-3947,-20254
3.4469,6860,10660,-22216,11322,-3656,-20318
3.4665,7596,11476,-18132,14147,-9737,-26609
3.4871,16228,21396,-16952,15944,-8063,-29576
3.5064,20244,30528,-13096,12317,-19017,-27278
3.5264,31912,32767,-9344,-1491,-32768,-787
3.547,32767,14024,-32768,-23238,-12677,20888
3.567,-5988,-22960,-32768,-13190,32767,-9188
3.5873,-32768,-9048,-11388,12638,-7569,-32768
3.6063,8588,-724,-32768,5316,-5828,-21575
3.6262,-3376,3092,-27720,723,32767,-1820
3.6473,-32768,-3460,-2916,2192,5836,-6662
3.6668,-4060,15400,-10284,-10280,-11374,7997
3.6878,3736,5592,-16488,-18080,26725,14204
3.706,-13428,-2436,-7188,-13631,27203,10703
3.7261,-9604,-1124,-8328,-7363,19988,3429
3.7477,-2436,2804,-10004,-7611,22577,6150
3.7668,1060,4272,-9216,-6101,23623,9332
3.7866,2708,8176,-12192,-10122,27401,19090
3.806,-7792,5824,-11772,-12347,26873,20325
3.8264,-8444,9072,-13404,-14799,23799,23728
3.8467,-11592,15996,-21072,-21973,21538,31854
3.8668,-7804,12948,-14204,-24910,20541,30411
3.8861,524,14004,-15608,-26763,17860,32767
3.9066,6884,7040,-26288,-24369,7396,32767
3.9267,6860,2048,-32768,-14860,15261,32767
3.947,-296,-10820,-15056,5052,22513,19577
3.9665,-10528,-3296,4488,12404,-6417,6282
3.9884,6856,10864,-2732,5898,-32768,-106
4.0061,19164,6004,-15884,-5116,-18138,917
4.0264,-7156,-9540,-22748,4379,-3555,-19196
4.047,-888,9628,-14420,32767,-32768,-32768
4.0668,32767,32767,-32768,18574,-5034,-32674
4.0865,30680,17324,-29500,-1447,32767,31804
4.1066,-32768,-17112,-15908,15590,14016,-21185
4.1264,-32408,-9612,-20264,30668,-30662,-32768
4.1468,-764,23124,-29860,32767,-6630,-32768
4.1673,-9044,27896,-15116,10245,2963,-12865
4.1867,-13948,22956,-10816,1457,-12055,-22627
4.2059,8756,17196,-19120,-11355,-21955,-9791
4.2272,19312,4836,-24344,-11325,-389,4528
4.2476,-176,-2248,-15452,2166,-881,1929
4.2665,-2828,4696,-15264,7367,-14639,-2785
4.2866,1812,13692,-17008,-1156,-9035,5491
4.3064,-960,12364,-10440,-4211,-15438,5087
4.3278,8848,11068,-15200,-6567,-18416,11813
4.3476,8084,10032,-21116,-7605,-9096,17764
4.3672,1812,2848,-18612,-6640,-10991,14829
4.3883,428,-3808,-20408,2345,-12095,5488
4.4066,3944,6540,-15732,6371,-8787,506
4.4269,6536,12260,-12588,-486,-11501,4783
4.4468,6424,10844,-15220,-6274,-14157,10425
4.4673,7500,-1480,-20848,-7772,-14131,4998
4.4869,6740,11544,-3676,-8809,-13279,-3939
4.5061,14100,5736,-13248,-15919,-25839,2114
4.5268,19180,1100,-21144,-10836,-16855,-1981
4.5477,14292,-4208,-20924,-4439,-12725,-6897
4.5659,12316,-96,-23020,6046,-10032,-17185
4.5869,11680,8392,-24016,9259,-5600,-18254
4.606,6792,10896,-21252,11356,-6336,-18464
4.6263,10644,12944,-12600,14075,-11350,-27612
4.6469,19188,24748,-17452,14191,-12131,-27665
4.6665,21868,32767,-12844,5214,-26697,-8777
4.6867,32756,32767,-19140,6535,-28815,-5187
4.7063,24704,13244,-32768,-23126,5557,14070
4.7268,-17188,-20944,-14920,-3676,32767,-32768
4.7474,-14120,-7712,-24256,-10035,-30130,-23541
4.7664,14124,-13152,-32768,2572,19787,-10370
4.787,-24784,2440,-16564,12104,32767,-2340
4.8061,-23452,5104,2116,17886,-114,-14990
4.8271,4636,26424,-10692,-16610,-2369,19735
4.8475,-2568,2380,-16296,-21367,25996,19560
4.8667,-16232,-3360,-9376,-9747,20976,10002
4.8878,-5284,1128,-9600,-5545,20509,6679
4.9063,-1400,6364,-8312,-6174,25226,10065
4.9263,-624,5496,-8588,-7055,23925,13203
4.9477,160,3936,-9348,-7886,29238,16259
4.9666,-3680,1880,-13464,-8508,25094,21507
4.9868,-8236,6612,-12208,-9076,29067,20106
5.0063,-13836,18164,-14320,-19459,19710,32767
5.0263,-12356,19256,-22308,-28168,24273,25581
5.0474,-3236,20992,-14616,-32768,11036,32767
5.0665,13436,12324,-29132,-32768,199,32767
5.0871,16400,96,-32768,-21288,22669,32767
5.1067,-2712,-20748,-13356,9235,28910,17100
5.1274,-16220,-10116,6452,21418,-8299,-7764
5.1474,3968,16060,-2220,12579,-32768,-7928
5.167,16260,6980,-23108,-5590,-18409,1307
5.1889,-13408,-16688,-22072,22385,-12068,-32768
5.2067,16884,22920,-32768,32767,-32768,-32768
5.2264,32767,32767,-21212,7313,26853,454
5.2472,-10880,-76,-20124,-14550,32767,24635
5.2672,-32768,-14064,-24716,19705,-27170,-25210
5.2872,-5824,2716,-32768,32767,-10826,-32768
5.3062,-4424,22128,-19180,24653,6538,-20974
5.3265,-19428,18316,-12396,8518,-7466,-15720
5.3479,-1668,19872,-13740,-114,-18906,-20484
5.3666,20380,17328,-24056,-11764,-12422,-514
5.3869,10412,1160,-20704,-6409,6618,6244
5.4063,-8876,2328,-12668,2241,-6832,1687
5.4276,-5412,10576,-17068,-928,-15600,2350
5.4475,440,12888,-14364,-7740,-17242,5975
5.4664,6196,13944,-11636,-8893,-18923,10624
5.4874,9956,13828,-15636,-11712,-22066,25646
5.5068,5884,-3800,-22900,-13909,-17306,27334
5.5265,1456,-10320,-19964,4025,-16601,10304
5.5468,7376,1492,-18048,12574,-16743,5205
5.5672,11420,11364,-12384,8240,-8601,4734
5.5885,5208,13500,-9024,-3238,-10832,9314
5.6066,6348,1424,-19136,-7328,-8045,-12460
5.6263,6364,20000,-8184,-17119,-17377,2387
5.6472,10300,4988,-14312,-23121,-24136,3674
5.6669,15456,-3712,-23476,-18402,-22893,-1512
5.687,18356,-8416,-28724,-4116,-13295,-10661
5.7062,14720,-2052,-25852,9661,-5518,-18027
5.7263,12216,5772,-22796,16620,-1608,-25004
5.7472,9580,12308,-18824,17960,-2974,-24873
5.7666,9600,17828,-9068,16181,-7937,-30850
5.7862,16132,28136,-20392,14397,-18345,-31950
5.8061,24436,28268,-21524,3259,-28026,-13068
5.8279,32767,32767,-22016,-4919,-30360,9358
5.8475,17924,1224,-32768,-32768,18918,13286
5.8666,-28888,-10424,-10012,-12228,5320,-10981
5.8875,-2596,-17732,-32768,-8518,-11608,-16311
5.9063,-2616,-13808,-32768,18344,32767,-23080
5.9273,-31984,8772,-7228,20010,27419,-18822
5.947,-13388,21660,1648,1299,-2052,-8386
5.9667,3228,16832,-12488,-22221,15197,19205
5.9882,-11168,-4020,-15168,-16081,29747,8586
6.0062,-14928,-4048,-8776,-5567,23698,1579
6.0263,-7632,4888,-4880,-4329,21908,3616
6.047,-3700,9144,-5088,-11618,16733,12807
6.0667,6940,3940,-11632,-13519,24615,16723
6.0877,-1760,1788,-11712,-11542,32767,22281
6.1062,-8556,2788,-10420,-9775,29101,19648
6.1266,-12668,12444,-14544,-16633,25517,29437
6.1481,-16608,15780,-15812,-20951,16843,26917
6.1671,-3200,18932,-15720,-29546,11126,32767
6.1867,6036,13416,-23116,-32440,12720,32767
6.2061,12452,5400,-32768,-24878,11704,32767
6.2266,9596,-2624,-32768,-8545,30198,32767
6.2483,-11516,-10508,6424,14828,17888,11055
6.2665,-14196,1212,7196,15224,-28594,-6394
6.2864,13580,12296,-12204,2446,-32768,-1893
6.3075,9008,-5356,-25968,-2011,-6045,-4531
6.3265,-9440,-3820,-21736,32767,-27334,-32768
6.3478,32767,32767,-32768,32767,4186,-32768
6.3663,29524,32767,-20432,-9055,32767,32767
6.3866,-32768,-15916,-8616,1274,3066,-12443
6.406,-14636,-7828,-32768,16620,-32768,-32768
6.4263,5252,12056,-24428,29574,13854,-25900
6.4475,-32256,13320,-9716,3800,-1654,2911
6.4663,-18952,9444,-18220,18570,-21766,-32768
6.4869,21188,32767,-24204,-8235,-27233,-7600
6.5063,29036,13288,-25084,-17596,9356,13082
6.5267,-7120,-4432,-12436,-7321,6517,9977
6.5483,-15732,-680,-13152,3804,-22466,-713
6.567,860,11764,-20416,-424,-19815,1015
6.5883,6036,16436,-14124,-6862,-13591,6560
6.6066,4516,17664,-9648,-10813,-17901,14503
6.6265,4504,6884,-13648,-12152,-18385,20372
6.6473,10120,-924,-23468,-10935,-15775,20809
6.6665,3408,-9072,-21428,2363,-11157,10281
6.6863,5416,1448,-16036,13494,-13870,1296
6.7063,12388,11392,-12640,9956,-8570,4432
6.7278,7716,13780,-9624,-152,-8122,7779
6.7474,3028,11048,-5832,-9627,-28901,24032
6.7664,15368,5256,-13276,-4463,-7281,-13801
6.7886,13176,9404,-11640,-15657,-18192,5152
6.806,12828,-1420,-19328,-14560,-17203,-621
6.8266,10680,-7092,-23972,-6560,-14288,-7710
6.8472,8608,-6284,-26124,5447,-11649,-17705
6.867,10196,1236,-27048,13598,-2595,-23179
6.8874,3204,8796,-24732,18659,355,-24985
6.9064,4192,14212,-16756,20852,-9761,-32218
6.9262,16044,32511,-17584,22535,-12404,-32768
6.9471,23408,32767,-13320,-1889,-31063,-13337
6.9667,32767,32767,-27568,-19767,-32768,18691
6.9867,26884,-512,-32768,-28909,11091,13390
7.0065,-23100,-18676,-19268,-5061,32767,-32099
7.0268,-24400,-18180,-18476,-7381,-28704,-29359
7.0472,13456,-1800,-32768,5792,15978,-19534
7.0665,-17508,5844,-18904,10734,32767,-10686
7.087,-32296,3332,1644,56,-9184,5732
7.1069,280,5688,-16180,-3256,1021,-5014
7.127,-712,13224,-11696,-14076,30334,13229
7.1471,-18152,-2796,-7268,-14477,25004,11953
7.1666,-12180,-7516,-9856,-3086,20470,2654
7.1876,-2356,3480,-6072,2208,28659,-1926
7.206,-492,14268,-3016,-7678,21727,15402
7.2268,-3208,5856,-11044,-13668,26890,24270
7.2473,-9028,1600,-12304,-11161,23169,23290
7.2666,-6824,12228,-19208,-14457,23357,32767
7.2866,-20468,13236,-21560,-20291,22859,32320
7.3061,-10060,12764,-11892,-21439,12150,32767
7.3264,1520,5664,-21820,-27312,5707,32767
7.3468,-168,-3700,-30800,-13049,9908,32767
7.3671,-13220,1404,-31184,-2127,1892,32767
7.3884,2304,2968,3988,6879,-13561,19251
7.4064,5188,7872,-6456,-31,-21798,17845
7.4272,10344,6592,-7724,-39,-26666,1086
7.4476,8600,9512,-10284,3351,-16825,-12932
7.4658,18924,17876,-20716,5700,-30896,-8713
7.4865,32767,13640,-30404,-4211,-10640,10419
7.5062,31884,-6508,-32768,8742,32767,-1944
7.527,-32768,5116,-31000,32767,32767,-32768
7.5474,-32768,32767,4180,32767,-32768,-32768
7.5659,27600,32767,-4808,-13992,-32768,-4599
7.5865,32604,8780,-25632,-32768,10791,23854
7.6064,-29724,-22804,-32768,-32768,19939,25824
7.6265,-22572,-24460,-15776,19122,-28631,-32768
7.6485,32767,25452,-17092,11947,-30787,-12786
7.6665,32767,25288,-12540,-5775,12818,18283
7.6879,-3344,5036,-6696,-8987,-5846,17459
7.7063,-528,-2260,-13060,-1529,-25162,7962
7.7266,9536,316,-23592,3375,-17133,10466
7.7473,3492,-1108,-19824,7209,-6801,5713
7.7668,912,9888,-11832,9110,-10110,2298
7.7865,4928,20456,-9760,1466,-13210,9915
7.8062,5444,15228,-10660,-8330,-14773,17257
7.8274,6408,5680,-13424,-9555,-15270,14572
7.8472,7408,2876,-14208,-6584,-12520,11010
7.8665,4756,4608,-14224,-5282,-11715,10043
7.893,4272,5432,-15096,-5289,-12006,9687
7.9068,2236,5108,-14332,-4973,-13618,9493
7.9271,5260,4896,-16616,-4050,-12799,8581
7.9481,2284,8380,-15484,-1926,-10184,7570
7.9662,-984,11340,-12296,-4000,-18925,13187
7.9882,9488,3036,-19396,-5570,-21330,17224
8.006,9308,1444,-22756,-2003,-14258,14262
8.027,4964,6968,-17064,1465,-11775,8156
8.0478,444,10856,-12936,-2990,-12423,12060
8.0671,-4796,13500,-13344,-7212,-9403,7100
8.0866,-9744,15168,-13556,-9577,-13082,4160
8.106,-1728,14268,-15688,-12081,-13736,10239
8.1265,-3212,2936,-16792,-10450,-7791,12811
