time,accel_x,accel_y,accel_z,gyro_x,gyro_y,gyro_z
0.0073,3872,8556,-15372,1532,-7601,-670
0.0279,3840,8132,-15536,1279,-7839,-2294
0.0499,3452,8296,-16152,858,-8935,-3845
0.0674,5280,8364,-17516,1736,-8935,-4714
0.0873,6304,8128,-17428,4536,-4687,-10097
0.1063,7356,9924,-17736,5977,-5064,-9485
0.127,7824,10104,-17444,8061,-499,-10615
0.1462,5072,8468,-17376,9410,-312,-11199
0.1666,4872,10456,-16232,9641,623,-14216
0.1871,7080,12164,-13340,9447,-7468,-12240
0.2068,16640,13656,-15976,8488,-16673,-11905
0.2272,19924,25696,-15372,6672,-9580,-4531
0.2462,11148,11200,-20364,-2946,-8251,6848
0.2666,-2516,-4332,-20384,3438,2403,-11833
0.2879,-6768,6832,-15756,5289,-5142,-16590
0.307,-1448,4112,-19544,-599,-2834,-10294
0.3272,-2824,2612,-17448,-5080,1742,-2312
0.3459,-7968,-3356,-16504,-9947,2735,5176
0.367,-10520,-7268,-16676,-2476,-1733,-2078
0.3872,1520,6224,-14068,-1707,1417,903
0.4068,2772,9092,-12572,-8493,15099,8531
0.4285,-5892,6192,-9140,-10634,15999,9582
0.4466,-5364,5008,-12232,-11346,16596,11454
0.467,-4992,3552,-14840,-10934,20525,13355
0.4864,-4952,4992,-11304,-8427,21655,11018
0.5064,-1256,7716,-10760,-10248,23899,15245
0.5281,-4268,6276,-11232,-11992,25263,16723
0.546,-3888,5608,-11392,-12525,24179,15997
0.5667,-3036,9144,-15340,-13147,27344,15908
0.5871,-4520,17472,-12320,-18162,25862,18995
0.6068,-5176,23624,-13584,-27965,19569,25965
0.6281,-4244,22044,-24900,-32768,6265,32767
0.6463,2264,5568,-25836,-32768,1840,32767
0.6666,5708,-12744,-24688,-21939,3919,31794
0.6874,7072,-11764,-18940,5324,13767,14107
0.7063,-876,-1208,-6540,18999,6386,4541
0.7265,-872,11236,-1608,16175,-8659,-2566
0.7462,6240,14692,-4288,1911,-20291,4479
0.767,7068,1900,-16920,-648,-17050,-2073
0.7864,6872,1636,-20452,15355,-14852,-20717
0.8065,32767,23424,-22004,17401,-5100,-20678
0.8291,20120,21980,-21372,5924,31410,-888
0.846,-18736,14144,-9544,8832,4576,-17849
0.8672,6816,20088,-10176,2086,-25659,-13980
0.8875,22788,8456,-23176,-6822,-2547,-3702
0.9065,5852,-3220,-19660,-6512,14823,-1273
0.9275,-16252,-2656,-8300,9060,5514,-20701
0.9462,-4904,16636,-9820,5113,-21908,-12309
0.9668,16880,16656,-18620,-5195,-17901,1023
0.9871,16716,4424,-20420,-6133,382,2583
1.0072,4844,1604,-10760,2577,-7949,1430
1.0282,9148,6460,-13180,4141,-15182,4504
1.046,10664,7640,-13440,3360,-12771,7108
1.0662,7856,6172,-12956,3755,-14955,5773
1.0871,9088,6636,-12936,3121,-13676,4120
1.1069,6188,7832,-14864,519,-12763,3826
1.128,4380,6612,-14212,801,-9478,-780
1.147,2788,8552,-11760,-666,-11003,-2308
1.1667,3528,9152,-13276,-2625,-10352,-1522
1.1866,3404,6688,-14696,-2556,-9454,-4669
1.2069,4672,7648,-14436,-2070,-7601,-5710
1.2272,4076,7148,-13796,-2118,-7145,-7121
1.247,3820,6152,-14516,-1480,-8404,-8146
1.2669,6084,5084,-15164,-423,-8121,-8147
1.287,7552,4292,-15100,1647,-6289,-9829
1.3065,6652,5656,-14924,2990,-5122,-10027
1.3268,6164,6828,-15428,4598,-6567,-11123
1.3462,6400,8184,-16248,5918,-4308,-12894
1.3663,5172,11340,-15872,5472,-5771,-12949
1.3867,5576,9932,-18160,5978,-5271,-13989
1.4071,4848,7720,-19376,8655,-4165,-15974
1.4293,8604,6420,-26016,11089,1297,-19089
1.4469,5288,11408,-13132,15465,-7780,-18714
1.4665,18132,17584,-19940,15133,-13259,-15004
1.4866,20456,29480,-3712,13402,151,-18078
1.5062,9420,32767,-6672,-5654,-32768,15985
1.527,23992,8332,-32768,-9493,-19922,9148
1.5474,6368,-16268,-32768,-1174,18125,-13097
1.5668,-17808,-5280,-13620,15574,-2122,-26620
1.5861,4284,3048,-18976,2888,-13450,-19801
1.6071,7472,4000,-20816,-6933,15613,2124
1.627,-23032,-2484,-12292,-9873,11044,7725
1.6462,-16716,-5736,-14116,-6428,-16438,2625
1.6673,6872,8636,-15236,-3652,6396,2422
1.6873,-3388,9996,-6376,-14027,18863,13940
1.7066,-9540,-964,-9608,-14033,14915,8927
1.7275,-3124,2316,-13044,-10102,18779,8699
1.746,-4424,3376,-11920,-8522,23109,7966
1.767,836,7848,-13652,-7977,19719,12404
1.7862,2220,5808,-13996,-11180,26468,18971
1.8067,-6340,1716,-12356,-9341,25469,16211
1.8276,-4132,7264,-13272,-10077,24147,17573
1.8462,-4500,13656,-14460,-15173,27254,24003
1.8665,-10644,15680,-17484,-22369,26862,25196
1.8871,-9652,17916,-12324,-29074,14635,31491
1.9063,-492,11840,-23108,-30176,7670,32767
1.9266,6592,4456,-28376,-23782,8472,32767
1.9464,7964,-4692,-25076,-10399,8035,27420
1.9666,5404,-6864,-14956,4998,18485,18574
1.9865,-8576,-520,-1948,17008,6638,2090
2.0067,-5600,12660,-2976,9733,-17751,-1352
2.0267,8116,10000,-9000,-727,-22464,-1689
2.0465,6260,424,-16416,1382,-12697,-7104
2.0665,7416,4744,-14608,20324,-12465,-32768
2.0872,32767,24436,-16020,17953,-12968,-30203
2.1063,32767,25432,-30876,3700,32767,13603
2.127,-31488,4868,-13844,13737,32767,-20350
2.1461,-18856,19220,2128,18301,-32768,-32609
2.1666,28464,19276,-25540,-8481,-27187,-6676
2.1873,20352,1868,-27648,-7420,26201,3392
2.2066,-22240,-2684,-7776,6019,8464,-17299
2.2273,-9840,11884,-14508,5193,-23710,-18603
2.2459,14872,15196,-21028,-3599,-14907,-5024
2.2666,11384,7032,-14512,-4044,-983,-348
2.2872,5492,5688,-8552,506,-12908,2651
2.3071,10684,4888,-14976,2765,-12953,4431
2.327,8456,5360,-13744,5605,-13615,5278
2.3459,8724,7460,-12228,5743,-14734,5833
2.3671,8088,7608,-12200,2669,-15182,5634
2.3872,5584,6464,-13608,470,-14054,3447
2.4069,3412,7964,-13700,43,-12377,728
2.4287,2400,9344,-13412,-1212,-11970,1067
2.4476,2276,7508,-13936,-1731,-12279,-945
2.4665,2544,7060,-15408,-1893,-10340,-3066
2.4869,2732,7288,-14708,-1066,-8881,-5179
2.506,3688,8392,-14948,-1759,-8254,-6814
2.5283,3808,8480,-14292,-1879,-8166,-7489
2.5459,5456,9072,-14364,-1567,-9924,-6576
2.5665,7592,7328,-14176,-1450,-10707,-5558
2.5871,9036,4828,-16704,488,-10369,-5894
2.6065,10184,4016,-18488,4314,-7901,-9056
2.6269,9080,5268,-18404,8216,-3654,-13453
2.6461,5220,10396,-18496,9759,-5465,-13423
2.6658,6860,8076,-23024,10214,-3385,-13576
2.6882,6628,7840,-18492,13154,-4314,-15790
2.7058,10812,11972,-21896,16314,5211,-31507
2.7262,12396,23056,-15092,12573,-10865,-21274
2.7457,18192,32767,-4824,19467,-11449,-25743
2.7662,17568,32767,-9256,-14746,-32768,14904
2.7871,24440,2272,-32768,-24573,-14144,11575
2.8057,1936,-22696,-28676,-2204,17855,-15510
2.8261,-13096,-7856,-18416,13873,-1169,-24402
2.8459,6116,8564,-21328,10933,6006,-16540
2.8666,-10728,7480,-19516,-7031,27404,6543
2.887,-29944,-3436,-7436,-9484,-11106,13685
2.9057,-324,1880,-18200,-5531,-11251,8436
2.9263,4560,9056,-11740,-8038,20871,12757
2.9462,-9372,4168,-6500,-9174,19472,12879
2.9663,-4240,376,-11000,-6587,20854,6617
2.9874,-4704,3992,-12052,-4283,25657,6396
3.0059,-6132,9224,-8788,-3048,22279,8328
3.0267,3388,8424,-15664,-8279,20387,16535
3.0459,-6172,4772,-12156,-9601,26018,17989
3.0666,-6180,8260,-10844,-12477,22447,20110
3.088,-5016,14340,-16368,-18145,25071,27585
3.1058,-12316,14836,-19168,-22693,29275,24599
3.1261,-8572,17684,-11116,-28484,16387,28239
3.1458,1472,14116,-20836,-30242,9583,32767
3.1662,5452,7000,-30484,-25834,5929,32767
3.1877,6004,-2392,-30832,-10582,11284,29042
3.2057,432,-10044,-11760,6904,18666,17131
3.226,-12444,900,-1540,13977,-3282,2553
3.2459,-892,12708,-5152,7484,-25688,-2442
3.2668,11452,7604,-12308,-1261,-19405,-1948
3.2878,4880,-704,-17516,9678,-14881,-22752
3.3072,25072,13796,-22060,18727,-19815,-32512
3.3275,32767,20268,-32768,10984,31999,-11634
3.346,-10160,6684,-26388,12108,32767,-7899
3.3666,-32768,8240,5564,32767,-5738,-32768
3.3869,6836,29736,-15220,4323,-32768,-16957
3.4067,32767,11844,-29860,-11229,4457,2865
3.429,-10044,-7692,-12140,-2779,22186,-16097
3.4473,-17956,8016,-10776,5801,-21288,-19878
3.4669,11340,16664,-17728,-3874,-17179,-8723
3.4873,15904,9136,-16144,-7873,-3660,-1656
3.5066,7012,2680,-11032,-2142,-8431,-2186
3.5266,8444,4932,-13476,2395,-11266,826
3.546,5368,6656,-13140,5540,-12909,1544
3.5667,7724,7760,-12800,3797,-15659,4276
3.587,7220,4592,-15652,2820,-14398,3278
3.6063,6848,5504,-14936,3646,-11458,147
3.6268,3996,9788,-14588,2598,-6668,-3076
3.6465,-660,12856,-11844,1725,-8555,-1422
3.6668,-1952,9900,-14324,-1162,-12825,-2370
3.6869,2340,8892,-15452,-1895,-12558,-2815
3.7066,4288,6464,-15064,-2334,-10683,-4239
3.7304,5188,7860,-15532,-2312,-10890,-5014
3.7469,6524,8556,-15476,-2113,-11713,-4853
3.7666,8168,7556,-15256,-2336,-12315,-3627
3.7871,10164,5812,-16012,-614,-14466,-3524
3.8065,13032,4348,-18616,2438,-12872,-5240
3.8279,14068,4516,-20260,7804,-7396,-9445
3.8459,9148,6556,-21888,11579,-2980,-11895
3.8663,8772,8132,-18992,14128,-4795,-14670
3.8879,8608,9804,-20308,17370,-10450,-14048
3.9068,10856,19404,-13764,13309,-7422,-19718
3.9267,22540,14520,-18116,20067,-17751,-32768
3.9463,21444,32767,-4160,3826,-19692,-7555
3.9673,23136,19004,-28344,-31162,-31228,29008
3.9861,1040,-17576,-32768,-18819,13122,-5975
4.0071,-21732,-7340,-14284,2846,-5964,-24875
4.0271,7908,-10824,-32768,9981,850,-24639
4.0461,868,2104,-27716,2932,32767,1534
4.0693,-32768,2084,56,3277,6544,1924
4.0865,-13268,15412,-6136,-3981,-18304,9444
4.1065,7676,11112,-16340,-14152,14884,17005
4.1269,-9804,1244,-10724,-9341,28994,10149
4.1458,-11080,796,-3956,-4632,21609,5777
4.1663,-3660,3632,-9072,-4640,26681,8220
4.1868,-8364,8580,-4408,-5732,20524,8373
4.2066,932,11704,-9208,-10533,17579,21065
4.2287,2156,652,-16764,-9803,27745,21267
4.2469,-9420,1136,-12636,-6980,29694,18664
4.2666,-11896,12704,-10532,-10016,24674,22476
4.2861,-10292,18664,-15008,-25727,17386,32767
4.3068,-6204,13204,-17220,-28669,17508,30697
4.3275,380,15212,-17344,-29671,10932,32767
4.3467,8080,9140,-32768,-26658,2389,32767
4.3668,8712,928,-32768,-14954,11725,32767
4.3871,-984,-13300,-11936,9267,20209,16642
4.4065,-13936,-64,-1268,18267,-2650,-6358
4.4275,-572,15916,-5244,8242,-28623,-4555
4.4461,10828,7884,-15192,-1116,-19645,-1640
4.4674,7612,2104,-16440,14148,-12048,-22750
4.4871,31704,15784,-15076,18983,-23775,-32768
4.5061,32767,32767,-30960,5602,32767,6265
4.5275,-29720,10512,-17152,11401,32767,-15220
4.5466,-20772,15580,-2048,12998,-32768,-27591
4.5667,27796,14376,-31184,-3136,-15771,-12980
4.587,7024,-2904,-27072,-2956,32767,-3665
4.606,-32188,-1020,-5336,12809,3313,-26491
4.628,-2756,20488,-16512,1748,-29230,-21363
4.6463,22704,21824,-19160,-8779,-11172,-2715
4.667,13012,7496,-11144,-11123,-4741,8224
4.6868,7836,-1592,-11788,-3947,-13050,4520
4.707,9708,1056,-15404,4461,-14551,1980
4.727,8836,5428,-15012,6901,-11656,2526
4.7465,5484,6688,-12224,6860,-15019,3042
4.7674,7524,9816,-13168,4312,-13243,1170
4.7868,4600,9696,-14080,1087,-10392,1491
4.8067,1644,8472,-13712,-306,-10868,178
4.827,1588,9092,-13412,-581,-12473,-1119
4.8465,3520,7096,-14896,-1790,-10710,-4692
4.8684,3648,7396,-13504,-614,-10391,-4765
4.886,3440,7436,-15300,-2013,-8755,-5999
4.907,4676,8056,-14540,-1241,-9088,-6785
4.9275,5728,9004,-14300,-1911,-9031,-7028
4.946,6360,7812,-14556,-2260,-10375,-6593
4.9661,8184,6148,-16448,-49,-10905,-8168
4.9872,10632,6636,-17272,3350,-8837,-10532
5.007,10408,8456,-15996,6011,-7009,-11492
5.0271,9204,8644,-18740,8900,-6173,-12186
5.0459,7940,6716,-21988,10632,-3466,-13149
5.0666,9648,6948,-21628,15334,-4047,-16516
5.0874,12772,13056,-21160,19156,3901,-28619
5.1069,15136,22564,-14016,10806,-15225,-16039
5.1261,22064,32767,-7716,14741,-13015,-32768
5.1459,26668,32767,-25364,-32302,-32768,32767
5.1678,16876,-15208,-32768,-18149,6192,7975
5.1875,-19004,-27896,-21756,5610,15764,-32768
5.2067,-5180,-1960,-22928,19316,-14940,-32768
5.2267,12720,14492,-24740,-2593,19256,2950
5.246,-30196,6256,-7516,-9156,18631,19962
5.2667,-20868,-6252,-9988,-7418,-20964,4981
5.2879,9568,7420,-18120,-3018,8401,4645
5.3072,-4160,10032,-7912,-10597,26305,13699
5.3291,-11572,-1540,-5640,-10168,19171,8384
5.3458,-4648,392,-11216,-5212,22059,2937
5.3673,-2560,5376,-10660,-5975,25984,6569
5.3863,-676,6692,-7036,-6867,19112,12048
5.4075,1756,1616,-14408,-9263,27197,22023
5.4286,-9316,2180,-14260,-5789,31553,13981
5.4465,-9664,12748,-10628,-8789,27411,19969
5.4665,-16796,18808,-20708,-20907,28777,25399
5.4865,-15824,16480,-13748,-28212,14822,32767
5.5063,-4476,12660,-17084,-31707,9004,32767
5.5265,5556,5284,-25840,-31646,6708,32767
5.5463,6584,3556,-32768,-15934,6517,32767
5.5668,15456,-12604,-17900,534,15220,21977
5.5867,-5544,-5436,-1296,12918,8095,7253
5.6067,-5844,7756,-164,14058,-22055,-6925
5.6263,8812,10068,-12380,1880,-27292,-1898
5.6466,7900,2104,-21312,9318,-13491,-16382
5.6672,26560,9752,-17860,24248,-19364,-32768
5.6861,32767,31848,-28784,11354,32767,-4577
5.7065,-25428,13912,-24760,11803,32767,-12820
5.7275,-28720,16064,-792,21433,-27845,-32768
5.746,19316,18452,-24064,-731,-23575,-19964
5.7666,9704,4436,-20312,-3524,24074,-8176
5.7866,-20300,2608,-8196,-1774,1596,-15017
5.8068,-5348,8120,-18512,-2918,-20566,-19062
5.827,16836,14612,-18400,-6139,-12154,-10671
5.8463,16188,12156,-11232,-8676,-5528,954
5.8666,11116,4004,-9384,-5897,-11295,5767
5.8867,10268,1204,-13944,-392,-15747,6095
5.9067,9964,1052,-16256,5374,-12042,3761
5.9267,6240,4304,-14320,9573,-13014,322
5.946,5280,8984,-15692,8037,-12252,1667
5.967,2036,11880,-19628,6219,-5292,-2256
5.9868,3396,13676,-12164,4056,-10190,-985
6.0066,520,9744,-13472,-979,-10317,459
6.0263,528,6532,-14592,-505,-12118,-2122
6.0462,4084,6448,-14364,-86,-10059,-4682
6.0663,3384,6692,-14572,-789,-8518,-6139
6.086,3800,6816,-14820,-617,-9034,-6412
6.1064,3496,7100,-15808,-1478,-7861,-7107
6.1282,3004,8576,-14140,-992,-9921,-8683
6.1459,6392,10504,-14560,-1734,-10690,-7201
6.1677,8064,9388,-16928,-654,-11687,-6987
6.1866,10676,7476,-17916,1365,-10087,-7344
6.2075,9984,5380,-19460,5826,-7517,-9512
6.2267,8376,6572,-21828,10430,-4414,-12628
6.2461,9140,7460,-20324,13001,-4322,-13441
6.2666,12612,8004,-22808,15943,-2404,-21637
6.2868,12824,23080,-15156,16849,-3794,-20018
6.3063,23716,25612,-9536,13460,-11582,-32768
6.3268,23492,32767,-11192,-3280,-32768,15958
6.3464,27164,7168,-32768,-24721,-19310,20715
6.367,-3844,-23436,-31260,-9942,20420,-10580
6.3875,-22864,-13576,-17128,22459,-9124,-32768
6.4069,12664,9692,-24612,6260,-419,-15313
6.4277,-8300,7856,-17712,-5547,32767,2944
6.446,-32768,-2908,-3916,-12834,-8574,16173
6.4676,-2244,-24,-18664,-5096,-10319,1617
6.4876,5140,11528,-12112,-8165,26566,8494
6.5064,-12640,5100,-4280,-13717,20615,14327
6.527,-8040,-1820,-9148,-8831,20834,4600
6.5471,-4052,2596,-11364,-6923,23462,7243
6.5664,-3964,5996,-9444,-6365,23351,8329
6.586,1780,8004,-14300,-9498,23655,17820
6.6068,-6132,3656,-14820,-10297,27217,19253
6.628,-7820,9068,-10560,-11679,25478,20362
6.646,-10252,15808,-15900,-19271,24332,28967
6.6672,-13604,11924,-17464,-24995,18018,30999
6.6871,-5624,10760,-17148,-24971,17248,32026
6.7068,-588,11144,-18224,-27174,8894,32767
6.7287,2404,4048,-26968,-17975,7861,32767
6.7471,4848,4628,-31488,-9023,-2176,30996
6.768,14972,-4104,-9628,4397,18646,18262
6.7873,-8600,64,1912,9264,-470,4029
6.8063,-4228,7832,-6352,5908,-23710,-4200
6.827,5300,4440,-16320,4286,-17433,-10405
6.847,988,3224,-18804,16997,-13129,-27177
6.8674,22104,20956,-15628,21794,-24998,-32768
6.8867,32767,29748,-25440,6768,26631,221
6.9063,-13092,7192,-22912,4018,32767,-8399
6.9281,-28828,11752,1984,23489,-12217,-32768
6.946,17288,20924,-22400,-2000,-28948,-19152
6.9667,18160,8868,-25796,-4100,20756,-6917
6.9869,-16108,1736,-11744,705,8105,-13802
7.0062,-10292,7732,-16756,-345,-18160,-17079
7.0273,8848,12412,-19816,-6167,-11331,-6562
7.0461,9436,9292,-11304,-6529,-7633,-2944
7.0663,14056,8648,-9088,-4740,-16161,4856
7.0866,15808,2200,-15352,-3015,-13063,8295
7.1086,9120,-364,-14680,5261,-9985,2788
7.1275,5340,5396,-13028,8505,-13448,2614
7.1469,5492,7664,-15096,6432,-13635,1982
7.1668,3980,9752,-14500,4084,-11015,395
7.187,2784,11480,-13492,1001,-10333,905
7.2062,1396,9692,-12504,-398,-12270,-850
7.2261,3480,7864,-14364,-408,-11068,-3080
7.246,5336,8008,-13376,-1087,-9426,-4906
7.2665,3884,7976,-15480,-1496,-9668,-4812
7.2866,3864,6424,-15988,-1583,-8627,-6841
7.3063,5480,7088,-14168,-627,-10356,-7660
7.3263,7448,9300,-12964,-1581,-11314,-6860
7.3462,9572,7736,-14548,-1787,-12938,-4402
7.3663,10020,5068,-17300,441,-12645,-5813
7.3866,11188,4860,-18520,5159,-8307,-9873
7.4067,8968,6548,-21288,8479,-7129,-10212
7.428,5720,5632,-21692,11909,-4588,-13805
7.4463,7276,8624,-20672,16533,-6384,-18230
7.4704,12272,18868,-19108,17895,-8343,-18704
7.4869,22140,15804,-15796,12256,-12153,-16554
7.5065,20004,32767,-5804,10666,-20129,-19953
7.5265,24524,24736,-26860,-27204,-32768,24764
7.5462,10804,-12856,-32768,-16698,8100,-4324
7.5663,-15788,-15004,-14516,7655,18524,-32768
7.5867,-7600,-2656,-20572,179,-15417,-21906
7.6062,4592,5272,-22160,604,13185,-12219
7.6271,-17252,-3240,-14748,-3161,17196,11683
7.6462,-19096,2612,-3212,5641,-3313,1045
7.6666,3448,20380,-10504,-8393,5777,14204
7.6865,-4648,4576,-14572,-16429,21446,20639
7.7063,-12536,-3848,-9428,-6313,19978,7333
7.7298,-6960,6540,-8828,-5836,18508,7578
7.7465,-664,8716,-8508,-8172,18160,12410
7.7668,1808,3904,-12068,-10902,19438,22172
7.7868,-164,-2240,-16892,-6322,26821,18775
7.8069,-5116,4868,-13252,-2576,26970,17629
7.8266,-6016,14672,-10792,-8469,24242,25536
7.8462,-12732,20120,-16956,-22148,22283,32767
7.8663,-9160,13428,-12156,-27937,14266,32536
7.8866,2244,14116,-17012,-26316,17880,30785
7.9069,6728,8804,-28424,-27062,7717,32767
7.9266,4984,4376,-32768,-16050,10175,32767
7.9463,2204,-9584,-17412,2774,26148,22381
7.9669,-12216,2896,2260,14876,5785,7754
7.9874,192,11568,168,5082,-26865,2826
8.0063,18864,8204,-14264,-7056,-18824,7599
8.0262,4576,-2084,-12572,-1528,-1468,-7217
8.0461,-11940,1292,-11652,9819,-13469,-20984
8.0675,6676,14420,-18608,21243,-26616,-32768
8.087,32767,29224,-22220,12464,-8355,-22828
8.1065,32767,21236,-25020,4522,32767,16154
8.128,-32768,5908,-19676,10924,27726,-20431
8.147,-16588,15580,-1408,23911,-31148,-32768
8.1666,32767,21308,-22308,-4909,-17653,-12674
8.1873,17344,1876,-24000,-11887,26791,6630
8.2066,-24968,-10344,-14412,6146,17087,-20301
8.2276,-16604,10284,-14964,11893,-25148,-28013
8.2463,16540,24348,-19832,-1642,-15145,-10421
8.2668,16932,9972,-12776,-9962,-2617,5720
8.2877,9068,196,-11324,-4390,-10728,4963
8.3066,9328,-668,-16292,4505,-8871,54
8.3267,8800,6268,-12040,9399,-10185,-1017
8.3462,10400,10064,-9992,6414,-11254,3055
8.367,7484,8568,-13508,2335,-11983,4705
8.3868,4160,6840,-14824,1748,-10840,2069
8.4069,2108,6240,-14908,2522,-9057,-1028
8.4265,1428,8752,-13948,1764,-9492,-1819
8.4462,2692,10920,-14072,-25,-9880,-1212
8.4667,2776,9248,-14388,-2703,-9041,-1614
8.4871,2632,7916,-13456,-2355,-9926,-2122
8.507,3064,9220,-15548,-2934,-9247,-2567
8.5277,4100,9508,-13876,-3811,-10306,-1779
8.546,4892,8296,-13844,-4016,-11651,-615
8.5668,6216,6336,-14228,-3084,-13033,625
8.5873,6548,4668,-16212,-1670,-10706,147
8.6065,4524,4724,-15984,1400,-11357,-520
8.628,6212,6312,-15988,3184,-11671,154
8.6462,6556,6160,-15892,4231,-10486,323
8.6665,4020,9348,-15020,4102,-9817,-665
8.687,2312,8656,-15640,2860,-12945,903
8.7066,3096,6760,-19652,1703,-13654,788
8.7268,4472,5748,-16832,4568,-11222,-4698
8.7462,3792,8748,-15844,4795,-13941,-1682
8.7663,10424,10168,-15720,5536,-12990,-5059
8.7861,14540,10296,-18084,6466,-10532,-4741
8.8065,5168,14864,-17188,4350,-8843,1693
8.8273,-6352,12432,-16016,-1532,-16430,2010
8.8461,-6448,11788,-19532,-3442,-21827,-648
8.8663,260,-376,-24796,-8583,-18399,2655
8.8874,-6144,-8100,-21644,328,-2108,-2200
8.9066,-14752,-4468,-13988,9141,-3535,-2871
8.9292,-4116,-4172,-13584,21888,8993,-6171
8.9465,-13452,21492,-536,6518,-3874,25558
8.9677,-10836,-1648,-12788,-1794,-15161,32652
8.9868,-5852,-6240,-16404,13939,-4211,20365
9.0073,-7312,4120,-11072,17138,3680,17665
9.0276,-11528,1596,-9420,18233,3419,20189
9.046,-12236,4820,-9612,17010,-712,26694
9.0666,-12920,3124,-13852,14310,-4934,32767
9.088,-13160,6668,-13128,12201,-12827,32767
9.1071,-8516,3512,-15988,10387,-17365,32767
9.1277,-4708,708,-17212,13499,-15487,32225
9.1464,-704,2752,-17120,15775,-10790,25553
9.1674,-876,5660,-16668,16084,-8285,22537
9.1866,-2928,6936,-16304,14011,-8588,23312
9.2069,-7968,7748,-18056,11748,-11432,24955
9.2268,-4708,8256,-16772,8445,-16774,28299
9.2462,-6140,5816,-15964,6772,-18676,27791
9.2667,-100,5404,-16156,8667,-18635,22342
9.2866,4000,6112,-16124,9087,-7212,18699
9.3066,-2144,4964,-12440,8814,-3632,16975
9.3267,-84,5056,-14620,7420,-354,18471
9.3463,-1640,1816,-13812,6826,3468,17106
9.3667,-1924,2456,-12956,5366,4675,18015
9.3864,-2196,3716,-11660,2189,8676,19685
9.4066,-7208,3284,-9364,-2246,10087,23218
9.4276,-11208,1888,-13104,-8050,5804,27911
9.446,-14148,-6972,-22920,-7879,1633,28522
9.4666,-15564,-6028,-22360,4738,-2230,14510
9.4867,-584,15440,-13928,8945,-8385,8841
9.5067,1744,23096,-10316,-14774,347,30621
9.5324,-5508,768,-13584,-6801,-506,3906
