time,accel_x,accel_y,accel_z,gyro_x,gyro_y,gyro_z
0.0099,18592,2220,-28832,145,11214,-2727
0.0271,-11372,-5360,-17824,6428,12990,-17027
0.0498,-15944,5988,-12764,5487,-14668,-18583
0.0678,3304,2528,-19960,-4185,-10393,-11957
0.0864,5196,-3040,-20208,-5409,4643,-7066
0.1062,-4776,-6700,-15256,-3721,7159,-8363
0.1274,-9172,-5380,-17408,-1338,-1863,-1018
0.1465,-852,832,-17272,4458,5911,-11434
0.1667,1272,14844,-11344,-3384,10311,2801
0.186,-4280,5928,-12476,-11340,10904,10898
0.206,-5100,2292,-14888,-10056,15294,8007
0.2272,-5840,6168,-12756,-10163,14928,11007
0.2465,-2812,9388,-13392,-12752,14242,17831
0.2669,-3532,5128,-12968,-14554,16858,18904
0.2859,-3256,5476,-10856,-13794,18958,16298
0.3079,-1708,4380,-11428,-14583,22995,16458
0.3265,-1640,5472,-13612,-13960,25154,14588
0.3466,-4928,12688,-13788,-14188,28731,14908
0.3676,-9296,18192,-10816,-24993,18602,22122
0.3865,-5356,16836,-16672,-32768,12561,26909
0.4068,-864,15524,-22628,-32768,7454,32349
0.4269,7024,9320,-28268,-28747,7732,32007
0.4467,7404,2100,-22432,-20269,5680,29387
0.4685,7840,-8908,-16396,-1166,13507,9117
0.4866,-3944,-3968,-12072,13079,11548,-6516
0.5067,-6768,8500,-2908,18325,-3391,-13501
0.5261,2092,12100,-7072,9724,-19668,-7531
0.5477,11268,3212,-18936,8812,-12268,-12103
0.5675,13360,6164,-23084,13120,-7486,-24149
0.5858,20788,21492,-12476,16334,18444,-18352
0.6064,1360,31788,-3684,2873,4842,-3954
0.6262,-108,18912,-9624,-8942,-10975,-2088
0.647,13496,5532,-21176,-9968,-15277,271
0.6678,15992,-2376,-22260,3007,6579,-5852
0.6871,-3260,4080,-9560,10255,6819,-7573
0.7092,-364,7680,-13044,5701,-10372,-3916
0.7263,7504,9208,-18428,3100,-6310,-1784
0.7465,5800,11120,-14856,3111,-6147,-2538
0.7671,7936,12808,-9628,2386,-10769,2149
0.7864,11084,9492,-10668,-701,-13755,9242
0.8071,9988,2740,-13864,407,-14994,10110
0.8262,9316,2260,-15020,3404,-13866,6688
0.8476,8300,5184,-15188,3319,-12229,2561
0.8682,5348,8724,-13512,1204,-10714,1427
0.8868,2828,10240,-12576,-1783,-11993,1841
0.9073,2872,8968,-13976,-3019,-12580,956
0.9261,4680,6936,-15936,-2807,-10089,252
0.9464,4016,5696,-15696,106,-8078,-3547
0.9671,5124,6280,-14968,2078,-3774,-7626
0.9866,2436,8884,-13856,1784,-4611,-7404
1.0066,3452,9592,-13776,286,-7613,-6543
1.0265,6156,6652,-14720,-452,-7676,-5883
1.0467,8160,7016,-16408,-1012,-7201,-4292
1.0679,9124,4972,-15076,4300,-5202,-9566
1.0859,9280,6252,-15048,6074,-3252,-10721
1.1073,7100,7680,-14580,6165,-3912,-12633
1.1261,6360,8528,-15380,6902,-4654,-13744
1.1463,5548,7692,-18172,8080,-3965,-16331
1.1673,7804,6452,-27868,8890,-87,-21230
1.1859,2804,9664,-15252,11012,-1696,-20820
1.207,9996,12948,-19396,14042,-3286,-25639
1.2263,12812,25832,-16040,16884,12311,-32705
1.2466,6480,32767,-5808,3475,-12541,-6950
1.2671,13652,22840,-12992,760,-31313,-774
1.2861,26356,12256,-26308,1814,-14976,-3565
1.3061,10556,8492,-26300,574,3407,4208
1.3263,-9304,-7448,-18504,6791,2217,-15952
1.3473,-1940,2616,-12832,5025,-9590,-17868
1.3671,7100,296,-22316,-2801,285,-7485
1.3869,-4732,-316,-17260,-4021,14038,-1290
1.4064,-18584,-4736,-15652,-4191,-3275,3460
1.4266,-3260,7504,-14324,-1387,-2779,785
1.4469,1524,12852,-10372,-12272,12116,14086
1.4686,-6088,2516,-10576,-14344,11899,14894
1.4871,-5236,1516,-12784,-12228,15998,11567
1.5096,-5608,4656,-11956,-11948,17114,12592
1.5263,-2168,7600,-11256,-13943,12271,19737
1.5467,2312,2744,-13284,-13742,21474,21608
1.5677,-4068,768,-11664,-11838,21549,20977
1.5869,-5480,3676,-12736,-12230,20112,23267
1.6074,-3776,11188,-14384,-13132,22723,24153
1.6262,-6236,18796,-14808,-21333,19184,32767
1.6464,-6664,15872,-17592,-29137,15522,32767
1.6712,-204,16420,-19884,-29710,4708,32767
1.6859,11004,11772,-27372,-24590,5455,32767
1.7073,12632,3692,-30332,-18038,13991,32767
1.726,2556,-8964,-14008,1207,24360,24827
1.7471,-10300,-1332,2800,15167,-197,3611
1.7672,1740,6532,660,6333,-24276,-4135
1.7859,16208,8932,-11156,-2952,-23716,2730
1.8064,4372,-4800,-22332,214,-9298,-1237
1.8264,-1932,-2844,-15852,25002,-21003,-24085
1.8466,32767,9812,-29056,29877,-9321,-32768
1.867,32720,27692,-19708,20567,32767,-5288
1.8858,-19872,13780,-12144,11116,16376,-7089
1.9076,-13920,620,-16952,13863,-13550,-28928
1.9264,4168,4908,-23080,17801,-8634,-23333
1.9467,-6016,4788,-15204,13387,5482,-18016
1.9686,-16440,9684,-14564,5545,-13053,-15215
1.9878,2252,15204,-21208,8623,-13554,-27334
2.0064,21080,20828,-19768,-801,1304,-8063
2.026,5172,9704,-13452,-4386,5747,4555
2.0462,-8140,3356,-11872,329,-9324,-921
2.0687,-164,6072,-18524,-570,-13907,1229
2.0861,3548,5892,-17308,-147,-8421,-1316
2.1066,6156,10372,-13152,404,-10617,1227
2.126,8736,13308,-13112,-2830,-10835,9823
2.1471,3372,7860,-13536,-5694,-13497,15680
2.1671,4892,-324,-18516,-4597,-13130,10313
2.1867,7708,-2292,-18920,3550,-7747,1848
2.2064,6384,10000,-12376,5325,-6810,677
2.2262,4636,14256,-11960,-1823,-11487,6419
2.2473,4276,6768,-16072,-5975,-12952,7361
2.2673,3864,3616,-15668,-4877,-13268,2443
2.2866,8068,3396,-14388,-2104,-11077,-1990
2.3071,9812,5956,-13080,-2451,-8632,-5205
2.3263,8880,5660,-14008,-3824,-11819,-4004
2.3467,11180,3048,-17144,-1606,-13194,-7588
2.3669,12336,4220,-17300,1450,-9713,-11264
2.3869,9884,6888,-17748,3989,-9394,-13305
2.4073,9736,8796,-22380,7265,-8260,-13764
2.4268,11208,5276,-22932,10974,-753,-16580
2.4468,5168,8952,-17404,14536,-2424,-18608
2.4682,4492,16988,-20112,14199,-6033,-17382
2.4863,4988,26700,-12956,15030,-8936,-13966
2.5073,17300,24028,-5272,-183,-23767,-19853
2.5264,24744,32732,-15872,-12881,-32768,16916
2.5476,19408,-6344,-32768,-16105,740,4190
2.5672,-7992,-17940,-21324,4354,14056,-25883
2.587,-4212,-360,-16552,8617,-9435,-28694
2.6066,7372,11792,-20392,-4942,13169,-7604
2.6263,-16328,1400,-15440,-12393,14794,3643
2.6462,-18796,-10420,-17868,-766,-6992,104
2.6676,2720,7124,-15388,-1420,8179,-1499
2.6867,-2380,10308,-7116,-9048,18975,9888
2.7075,-6728,2172,-8292,-11311,14870,8234
2.7263,-1392,2508,-12624,-9939,21240,5253
2.7464,-6076,2144,-13728,-8947,19977,4437
2.7682,528,7548,-15872,-7753,16464,11355
2.7873,228,5888,-13844,-9939,22605,15287
2.8067,-5084,4128,-11408,-10681,20289,16254
2.8264,-3752,5396,-11160,-12551,21015,16548
2.8467,-2608,8120,-14972,-17008,22480,22148
2.8687,-8256,11520,-19436,-18754,26654,20813
2.8869,-9008,15380,-12324,-21512,19174,23129
2.9076,-1484,12692,-17012,-26456,13412,26875
2.9264,4492,11088,-22820,-24058,8716,31156
2.9471,5016,10096,-23236,-20185,11645,32623
2.9677,3320,3300,-19012,-12169,10805,24028
2.9859,428,-7464,-13824,-3640,8514,19095
3.0066,-7004,-2976,-5984,11530,-2262,-3185
3.0271,1400,9596,-7900,10224,-15313,-5588
3.0463,6028,7856,-11728,4645,-13363,-3604
3.0664,2172,3612,-14060,14217,-11291,-18535
3.0857,13460,19884,-16812,22739,-21658,-32768
3.106,32767,32767,-23852,3323,17889,-3613
3.127,-1760,10624,-14684,-1832,32100,-1183
3.1464,-14836,3164,-4564,10839,-11059,-25699
3.1666,16804,13704,-20660,6283,-14257,-16785
3.1859,14048,6852,-21312,-1777,7231,-801
3.2058,-10776,-2780,-15540,-328,13247,-8989
3.2278,-14472,11504,-9272,11313,-18699,-18138
3.2462,9776,22104,-19716,-2777,-21550,262
3.2668,12796,9316,-16652,-8082,-5181,6101
3.2859,4548,1124,-11416,-493,-10866,26
3.3058,11596,5968,-12624,2306,-14962,3814
3.3273,9612,5992,-13212,2753,-11237,4622
3.3462,7896,8664,-10436,2944,-17120,5704
3.3662,11932,8280,-12128,-238,-16457,6332
3.386,8592,5096,-15136,-1163,-13127,4838
3.4059,3884,5064,-15940,208,-10915,1910
3.4272,1068,6404,-14320,2435,-10453,-1471
3.4464,2172,8716,-13796,2122,-11599,-2339
3.4668,3680,9540,-14588,-83,-8794,-3055
3.4861,1072,7932,-15280,-518,-6926,-5526
3.5061,780,7324,-13416,771,-5661,-13021
3.5268,3612,12552,-14708,-1320,-7208,-10206
3.5463,5884,10536,-15396,-3448,-7501,-8349
3.566,9108,6888,-12748,-2279,-10328,-8178
3.5858,14804,3944,-14628,186,-12358,-8006
3.6059,17016,3144,-19136,4059,-5004,-10016
3.6277,10176,4596,-14484,9264,-9299,-7594
3.647,12484,6176,-21544,16678,13595,-29818
3.6663,5964,14468,-13700,11219,-14291,-12000
3.6859,15752,13436,-21184,15431,-7364,-21009
3.7057,11748,22076,-16320,16963,-762,-19225
3.7272,20896,28248,-6156,22671,-24454,-31120
3.7479,26540,32767,-12948,-8505,-32768,29498
3.7679,19396,3452,-32768,-17676,-902,16906
3.7864,-18440,-25188,-31980,-7710,24377,-14735
3.8079,-24672,-7784,-16860,19344,-21569,-32768
3.8266,17392,7472,-24676,10661,6919,-23202
3.8463,-9068,16868,-7856,-12925,28368,17810
3.8669,-30700,-8900,-10924,-14607,-10538,14352
3.8859,-3064,1472,-18768,-2891,-4277,3050
3.9073,-852,7972,-9764,-8878,22310,12333
3.9261,-10532,292,-3140,-8338,20072,8357
3.947,-3276,892,-8808,-5496,22478,6729
3.9669,-3500,4548,-7004,-5271,25150,10348
3.9861,-6796,6000,-9548,-7401,22550,11924
4.008,172,8416,-9904,-8340,16829,19750
4.0266,-1300,7348,-15160,-12447,25902,21650
4.0471,-9932,10072,-10832,-13024,24407,21656
4.0678,-8776,14844,-13080,-21013,14361,31549
4.0859,-4052,10164,-17680,-25507,14398,32743
4.107,-984,10152,-19576,-23604,16724,30703
4.1262,2692,10352,-20508,-22625,10751,32767
4.1477,4440,9936,-29328,-15329,10749,32719
4.1687,3508,-24,-20320,-7802,6720,21806
4.1863,7232,-5108,-7492,2713,11815,11382
4.2075,-3344,400,-1364,7025,-7622,1457
4.2264,4384,6736,-7708,4989,-18464,-3137
4.2472,3888,2192,-16352,5861,-15633,-8211
4.2672,5524,5932,-18004,18218,-12783,-27128
4.2871,32767,22720,-16616,18622,-11637,-29629
4.3079,31664,27280,-25912,3872,32767,6773
4.3264,-26524,12800,-15684,8641,20207,-16312
4.347,-7212,15560,-6608,10924,-27120,-26645
4.3686,22800,12052,-23728,-2792,-3666,-10679
4.3867,2824,-1808,-21252,-3143,19486,-5870
4.4076,-20540,-3328,-9664,9700,1648,-25945
4.4263,-4100,19248,-14432,5641,-19365,-21739
4.4462,15772,21412,-14644,-8431,-13121,-1598
4.4674,14080,8600,-11272,-10344,-8890,6610
4.4868,10988,68,-13312,-3517,-12410,5847
4.5069,11864,-708,-17456,4597,-11877,2121
4.5263,9468,3808,-14952,10149,-8301,642
4.5468,6836,8160,-11720,10061,-11429,139
4.5675,7228,9648,-14096,4499,-10967,908
4.5869,2440,7304,-14464,2935,-9217,-1139
4.6066,480,9032,-13592,1546,-11484,-1778
4.6267,3064,8504,-14572,612,-10269,-2219
4.6465,1284,7768,-15408,606,-9560,-3229
4.6678,2388,9516,-15068,282,-7588,-7313
4.686,1804,11076,-12460,241,-8069,-8425
4.7075,2944,10908,-14452,-3008,-10431,-5484
4.7267,5200,9120,-15472,-3533,-10802,-4981
4.7468,7212,5464,-15100,-2612,-12213,-5419
4.7677,11040,5048,-14936,-97,-11796,-6741
4.7861,13220,5800,-16552,4304,-8819,-8871
4.8067,13268,3712,-22392,9377,-2748,-16652
4.8269,4068,17976,-10248,8924,-4147,-16313
4.8472,7956,12324,-18344,4751,-12499,-12529
4.8687,12928,4684,-24604,8251,-9826,-12380
4.8865,14028,8668,-22700,20078,-907,-21148
4.9067,15280,22860,-17448,25982,1532,-32768
4.9264,5588,32767,17540,7539,-31232,205
4.9477,31256,25220,-32768,-31745,-32768,32767
4.9675,18688,-24932,-32768,-6422,20710,829
4.9858,-22508,-27684,-18264,18818,23329,-32768
5.0066,-9052,4720,-15060,22291,-13376,-32768
5.0265,10076,21280,-19180,-3911,11833,3248
5.0469,-23580,1588,-10768,-19502,5056,26408
5.0681,-17972,-13032,-15884,-2374,-10178,-391
5.0865,5256,9476,-16168,72,9870,428
5.1075,-4508,9004,-6956,-12364,22695,14493
5.1265,-10424,-3576,-7436,-10492,20626,7534
5.1465,-5460,1380,-11332,-7004,23347,2858
5.1682,-5328,6524,-9400,-8509,24840,7287
5.1877,-3616,7632,-9416,-9459,22398,8973
5.2071,2252,5888,-14416,-12557,20962,21960
5.2266,-6364,3608,-14720,-10467,27794,16897
5.2463,-9104,10440,-8432,-13814,24167,19928
5.2672,-9300,15244,-16340,-24149,17352,32456
5.2861,-6908,10232,-20844,-26324,18993,28875
5.3062,-1852,14640,-14564,-26489,15790,29514
5.3273,6436,12464,-23976,-26184,4525,32767
5.3463,6436,7132,-32768,-18591,6328,32767
5.3663,9132,-10580,-19248,-2506,19720,23507
5.3861,-6460,-6896,-3700,14319,10006,-949
5.4057,-4304,9844,-3168,14524,-13083,-8426
5.4276,5496,11444,-11132,3997,-16673,-3068
5.4461,3828,416,-19056,8583,-11320,-17326
5.4661,9868,12004,-17816,20234,-13831,-32768
5.4857,32767,31496,-16304,15170,7270,-25428
5.506,10548,18732,-23372,1302,32767,616
5.5277,-24944,5628,-7392,11545,3482,-26002
5.5465,3808,10660,-17024,4319,-28584,-23240
5.5662,23240,11160,-27764,607,4639,-8623
5.5858,-6448,-1000,-13688,-1035,21816,-11536
5.6061,-19628,8616,-5960,6540,-13857,-17782
5.6271,7348,18652,-19120,-2853,-24576,-4230
5.6463,18600,9644,-18500,-8394,-7779,5326
5.6663,9964,668,-12172,-460,-6976,3719
5.686,9284,5404,-12620,4895,-13808,5828
5.7058,10764,6260,-13676,5674,-11921,6350
5.7274,7660,7104,-11724,5150,-13948,6859
5.7459,7948,7656,-12020,3825,-16268,6585
5.7664,6820,7296,-16668,1219,-12642,5056
5.7859,2796,6432,-14716,1755,-10021,874
5.8059,1680,7728,-13000,1445,-11415,-323
5.8273,2868,10368,-14376,-585,-11587,-174
5.8461,2760,8508,-14572,-2015,-9230,-3150
5.8661,1756,8380,-15144,-2189,-9714,-4578
5.886,3724,8088,-14716,-1577,-8028,-7936
5.906,5020,7476,-14496,-15,-10833,-4511
5.927,8276,6728,-13252,-1305,-9885,-5796
5.9463,10684,4364,-15016,-164,-10255,-5104
5.9678,10192,3028,-16780,3722,-7775,-8587
5.986,10040,6420,-16564,7113,-5200,-12722
6.007,10160,6868,-19664,10154,-8201,-9427
6.0264,4044,19580,-9804,9362,-4001,-17760
6.0468,6508,9520,-18924,2207,-13874,-10223
6.0693,11088,4612,-23436,11015,-5370,-19416
6.0862,12996,11996,-25340,19428,-462,-25926
6.107,22596,21100,-14840,24443,5420,-32768
6.1267,4756,32767,20408,11819,-32512,10754
6.1469,30904,28396,-32768,-29827,-32768,32767
6.1669,17052,-27364,-32768,-13857,12710,1216
6.1858,-20040,-25608,-22244,23393,21734,-32768
6.2064,-7556,6324,-13240,19384,-11504,-32768
6.2264,8860,16468,-21696,-8561,11723,2330
6.2465,-26392,-184,-14664,-20601,13030,17900
6.2674,-18900,-14372,-15396,-7880,-12779,-5421
6.2872,8244,10596,-15008,-503,12478,-726
6.3078,-6668,13404,-5728,-17023,23350,17910
6.326,-10304,-4072,-8492,-14457,18387,10756
6.3463,-3032,1328,-11928,-8052,22914,4218
6.3679,-4724,7272,-8784,-10326,26475,8211
6.3875,-4456,7668,-8808,-13137,18169,15671
6.407,628,3160,-15800,-13347,24482,19486
6.426,-6668,5076,-13876,-11134,28675,18798
6.4466,-9736,10492,-10116,-15419,22724,24992
6.4673,-9496,12768,-17700,-23864,16851,32767
6.486,-5816,13584,-21340,-26325,18688,30836
6.5073,1452,16472,-14648,-26918,9769,32767
6.5265,11780,12828,-27796,-27496,3059,32767
6.5468,11656,-328,-32768,-20288,9440,32767
6.5667,712,-17208,-10304,7308,22859,16404
6.5858,-13560,-5328,4376,18237,-6788,-4167
6.6067,6544,17188,-1024,8186,-32768,-6705
6.6271,18888,8864,-16340,-8793,-17916,3468
6.6473,-1344,-11040,-19972,9298,-5449,-25912
6.6705,11800,5060,-25004,30953,-25561,-32768
6.6867,32767,32767,-22648,18425,23210,-14542
6.7079,4228,6320,-16716,6479,30186,2665
6.7264,-20508,-4280,-21208,15832,-4636,-20546
6.7465,-4320,3280,-29916,21536,832,-32606
6.7677,-9168,6956,-14976,24537,7266,-24345
6.7859,-20668,10892,-5496,19280,-1006,-26807
6.8072,-8068,26244,-12088,6670,-16017,-32768
6.8266,16100,30408,-22368,-17948,-23599,1631
6.8467,24192,4140,-23732,-14814,7288,4244
6.869,-1260,-3688,-14220,-4260,1645,6005
6.8871,-8900,-2084,-14200,6870,-15577,-937
6.9066,2488,7960,-20728,6672,-13099,-430
6.9261,4148,13824,-12684,3455,-10183,24
6.9468,8004,16136,-10328,-3153,-15471,10140
6.9668,10312,7248,-16876,-5557,-10943,14290
6.9858,3808,1776,-16296,-2401,-9122,12911
7.0061,2548,764,-16344,3428,-11245,4045
7.0265,7704,5752,-16180,3809,-6451,478
7.0468,4856,12352,-12136,1015,-6353,2257
7.0692,3160,12360,-12652,-6079,-11822,7848
7.0877,4032,5128,-16540,-7253,-12510,4827
7.1106,6768,2868,-16832,-4846,-10294,-995
7.1262,10756,1816,-13892,-2041,-8884,-4839
7.1468,13260,3204,-14120,-1740,-6480,-6892
7.168,10316,7844,-11252,-1712,-10246,-4902
7.1873,11072,5208,-15140,-1998,-10981,-6416
7.2065,8888,4044,-15612,718,-10042,-11306
7.2264,8104,7000,-16776,1610,-11240,-12500
7.2467,6832,7588,-19464,2519,-8915,-13362
7.268,4964,6808,-22744,6338,-6169,-16843
7.2869,8744,8404,-21772,11555,-1481,-21673
7.3069,10308,14020,-16972,14845,1834,-21846
7.3267,11504,19052,-19044,18898,-2157,-24308
7.3467,18468,28896,2484,14199,-19045,-25218
7.367,19212,32767,-9868,-5523,-32768,24187
7.3858,26972,-2012,-32768,-17444,2894,14501
7.406,-14560,-25096,-25224,6702,27125,-22537
7.4267,-21208,-3128,-11824,15825,-13517,-32471
7.4465,13564,10980,-23056,2623,-6150,-11859
7.4676,-2244,3156,-19676,-8013,19865,7228
7.4867,-25588,-3156,-10188,-10047,-5165,12728
7.5077,-4052,-4792,-19016,-1820,-6749,446
7.5263,4636,8816,-13888,-3439,18244,4404
7.5465,-8816,6956,-7220,-9199,18339,8534
7.5675,-5340,1948,-8776,-9075,16306,8216
7.5873,-2424,2132,-11760,-7553,25071,7025
7.6107,-6136,6968,-8856,-6262,19347,9339
7.626,-648,6248,-12444,-8073,16990,12620
7.6466,304,4288,-16352,-8178,24135,16723
7.6679,-7340,3260,-11272,-6495,23030,13660
7.6867,-4932,11712,-9824,-11346,23318,17084
7.7063,-6044,14960,-14156,-22802,16689,32022
7.7261,-7076,11516,-20140,-26446,21666,26751
7.7473,-5444,14504,-15000,-27084,14939,30298
7.7676,3504,12160,-18832,-27548,5091,32767
7.7865,8160,10948,-28812,-21027,4912,32767
7.8064,13056,-1924,-26500,-13571,8560,25358
7.8265,3384,-11320,-9128,5769,23127,11072
7.8467,-12528,-2744,1748,15785,-6436,-8020
7.8669,4944,13608,-6700,8215,-25680,-6275
7.8858,12324,5748,-17592,2124,-16365,-2134
7.9073,4008,1460,-19896,16725,-6672,-24518
7.9264,30664,19576,-14500,26025,-2405,-32768
7.9463,27576,26720,-17008,6312,32255,1294
7.967,-17568,10556,-14612,3679,14426,-13349
7.986,-6436,12732,-7812,9974,-16975,-29393
8.0066,21648,11320,-24672,-2452,-9988,-13337
8.0267,12480,3560,-20756,-1453,13083,-5736
8.0465,-12164,2568,-8120,4879,9401,-16177
8.0691,-6444,11108,-10696,1944,-17365,-13779
8.0869,9024,15804,-20628,-5081,-15315,-2060
8.1063,10060,4756,-19044,-5255,-5535,911
8.1263,6268,3016,-13112,3998,-5573,-3931
8.1468,8056,10120,-12464,4142,-10036,3239
8.1678,7044,8004,-12028,3211,-12294,6497
8.186,9260,8036,-11168,3295,-15114,6420
8.2068,12140,8040,-12356,1282,-14929,7671
8.2263,10548,5168,-14132,1079,-11595,5343
8.2464,5964,5240,-13928,2163,-10021,2102
8.2672,3700,7564,-14556,1810,-9547,1016
8.287,3296,8096,-14360,2228,-9454,-871
8.3067,2712,8520,-14660,294,-8537,-2166
8.3259,3376,8880,-13220,706,-8210,-3181
8.346,3612,7772,-13788,-142,-8390,-3807
8.3676,4280,6548,-15004,-179,-6781,-6592
8.3869,4164,6720,-13928,855,-6549,-8170
8.4081,6064,7052,-13784,1058,-7439,-7746
8.4264,7876,6608,-14844,1951,-6702,-8337
8.447,8508,5944,-16804,2960,-4281,-9593
8.4697,5352,6316,-14156,5965,-3271,-11391
8.4861,4396,7576,-16756,6177,-6100,-10244
8.5067,3580,6224,-18004,6336,-5130,-11016
8.5268,2524,7528,-20028,6449,-7856,-9156
8.5468,6452,6332,-24044,11737,4702,-23850
8.5681,5352,16880,-14216,12935,-3086,-18259
8.5859,13172,16684,-13904,11091,-16141,-9489
8.6072,27348,23448,-12248,5895,-9120,-18971
8.6268,20708,32767,-8048,8500,-23907,4412
8.6464,20920,21724,-29312,-7377,-21536,12262
8.6674,4408,-3212,-31720,-1885,6548,-3877
8.6861,-17700,-4736,-13204,27,5185,-19251
8.7075,-8700,-9140,-21168,4800,-17428,-14924
8.7266,8844,5820,-21552,2762,9164,-6964
8.7467,-16756,10404,-7284,-7657,11760,18288
8.7697,-20936,-7740,-13524,-14143,-18024,21685
8.7861,2804,-3692,-19940,2238,211,3397
8.8072,1528,12664,-9688,-4271,20161,11761
8.8267,-8232,3792,-6264,-6517,22679,10841
8.8466,-7092,2488,-6680,-4120,20539,8184
8.8694,-6324,2516,-11060,-4733,25137,9902
8.887,-8520,5632,-8232,-4842,20350,9977
8.9067,404,8264,-9144,-7715,16965,20644
8.9263,-3388,5736,-12084,-11663,24538,25093
8.9466,-12900,8404,-13584,-12314,21408,25921
8.9667,-21000,20836,-18488,-25241,13949,32767
8.9858,-20740,11600,-17504,-32768,-4661,32767
9.0066,100,1308,-22080,-32419,-7103,32767
9.0264,6008,-1344,-28728,-16908,214,32767
9.0466,-164,10852,-32768,-6759,-4797,32767
9.0671,-4832,-4292,-16560,-5791,-5495,31102
9.086,-3412,7652,1804,14752,-18358,-4439
9.1075,17280,21120,-1644,-293,-22337,265
9.1261,28120,15068,-6536,-8137,-19954,5246
9.1473,32767,2732,-19064,-6225,-3428,939
9.1676,26768,8292,-32768,133,32767,4685
9.187,-32256,612,-32768,18982,32767,-16653
9.2067,-32624,7936,3392,32767,-12660,-32768
9.2264,23216,32767,-3200,8834,-28592,-14221
9.2466,24988,22364,-14844,-29055,15032,21849
9.2674,-17120,-14032,-22160,-23035,6612,4440
9.286,-6312,-7368,-15740,5295,-16983,-32148
9.307,26272,19132,-17356,3190,-6823,-15864
9.3261,19648,14904,-14288,-8694,5418,8995
9.3472,1984,1240,-12092,-6702,-5380,9123
9.3674,6816,464,-16492,560,-13852,2962
9.3869,12700,5176,-17252,1907,-6085,4359
9.4067,5404,9272,-13212,1785,-4583,2160
9.4264,4060,12728,-9716,-1205,-9456,2453
9.4471,6060,10248,-12748,-5526,-10284,6580
9.4672,5400,4840,-15004,-4548,-8689,2400
9.486,5856,7492,-14180,-2931,-7035,1603
9.5074,4288,10004,-12604,-3648,-6281,2015
9.5263,3848,11140,-11936,-5706,-7689,2845
9.5465,4636,10136,-12452,-7680,-9570,5155
9.5667,5128,6864,-13896,-6699,-9497,4146
9.5859,6344,7104,-14376,-5164,-8543,3338
9.6067,6436,9000,-14204,-4277,-7369,3945
9.6262,5472,8176,-13928,-3447,-8422,4939
9.6464,4236,8564,-15648,-3687,-10782,8453
9.6672,3568,6384,-18168,-3239,-12455,10072
9.6858,4620,4148,-19152,-2712,-14371,11825
9.7066,5944,4928,-18592,-1704,-13074,10845
9.726,6860,8056,-13280,-2037,-11126,9116
